File: src/data/AITEX_02.csv
Material,Nº holes / Nº filaments,Diameter (mm),L/D,Filter (um),Sand quantity (cm),Support,Vpump (rpm),Vext (rpm),TE1 (°C),TE2 (°C),TE3 (°C),TE4 (°C),TD(°C),PD(bar),PE(bar),VTO (m/min),VG1(m/min),VG2(m/min),VG3(m/min),VG4(m/min),Vwinder (m/min),Winder tension (N),Tg1(°C),Tg2(°C),Tg3(°C),Quench (%),Spin. F (rmp),Height (m),Count (dtex),Tenacity (g/den),Elongation (%),Sand size min (um),Sand size max (um)
COPET GP001-EASTMAN,36.0,0.4,4.0,60.0,0.0,4.0,10.0,23.9,280.0,285.0,285.0,290.0,295.0,95.2,69.1,968.0,1005.0,1701.0,1751,1780,1845.0,,85.0,110.0,110.0,20.0,24.0,1.4,155,0.54,44.94,0.0,0.0
COPET GP001-EASTMAN,48.0,0.4,4.0,60.0,2.0,2.0,10.7,30.7,280.0,280.0,280.0,285.0,285.0,79.1,75.0,949.0,999.0,1909.0,1961,1991,2060.0,14.0,85.0,100.0,90.0,30.0,24.0,1.5,160,1.67,73.79,850.0,500.0
PLA 6100D NATUREWORKS,36.0,0.3,2.0,60.0,0.0,,15.0,50.0,225.0,215.0,220.0,230.0,235.0,8.0,75.0,2600.0,2700.0,2820.0,2975,2960,3055.0,21.0,59.2976,87.2666,96.4411,20.0,20.0,1.3,135,2.08,55.33,0.0,0.0
PET + 3% Antivirico SUKANO,72.0,0.3,2.0,34.0,3.0,2.0,20.0,64.0,275.0,280.0,285.0,285.0,290.0,91.1,75.0,2695.0,2765.0,2765.0,2695,2695,2780.0,18.0,109.162,133.229,134.406,24.0,20.0,1.5,218,2.28,92.61,500.0,355.0
PET + 3% Antivirico SUKANO,72.0,0.3,2.0,60.0,3.0,2.0,20.0,58.94,270.0,280.0,284.0,285.0,285.0,91.3,76.8,2695.0,2765.0,2765.0,2695,2695,2790.0,16.0,100.443,116.283,129.319,20.0,24.0,1.4,215,2.37,101.72,500.0,355.0
PET + 3% Antivirico SUKANO,72.0,0.3,2.0,60.0,3.0,2.0,16.0,80.0,250.0,260.0,265.0,270.0,270.0,25.0,60.0,2695.0,2765.0,2765.0,2695,2695,2790.0,16.0,98.8094,127.426,123.3,20.0,24.0,1.4,170,2.06,123.89,500.0,355.0
PET + 1% Bactiblock 101 R4.47,72.0,0.3,2.0,178.0,2.0,2.0,20.0,80.1,270.0,276.0,278.0,280.0,280.0,40.9,51.2,2201.0,2361.0,2379.0,2289,2299,2370.0,,89.9387,103.779,115.655,30.0,26.0,1.35,250,1.38,204.0,500.0,355.0
PP HS61R,12.0,0.5,4.0,,0.0,2.0,27.0,44.0,195.0,195.0,200.0,200.0,200.0,0.0,75.0,1252.0,1549.0,1900.0,1991,1971,2000.0,25.0,,,,60.0,22.0,2.25,290,1.68,223.5,0.0,0.0
PP HS61R,12.0,0.5,4.0,,0.0,2.0,30.0,44.0,195.0,195.0,200.0,200.0,200.0,0.0,75.0,1252.0,1951.0,2450.0,2651,2558,2595.0,25.0,,,,60.0,22.0,2.25,240,1.83,62.83,0.0,0.0
PP HS61R,12.0,0.5,4.0,,0.0,2.0,33.0,58.5,195.0,195.0,200.0,200.0,200.0,3.1,75.0,1252.0,2099.0,2349.0,2651,2558,2595.0,25.0,,,,80.0,24.0,2.25,270,2.02,98.25,0.0,0.0
PP HS61R,12.0,0.5,4.0,178.0,2.0,2.0,33.0,60.0,190.0,200.0,210.0,210.0,210.0,34.0,75.0,1399.0,2489.0,2501.0,2661,2558,2595.0,,72.0667,68.4614,95.5738,100.0,22.0,2.25,240,1.41,108.6,800.0,500.0
PP 561R,72.0,0.35,4.0,178.0,0.0,,50.0,83.0,190.0,200.0,210.0,210.0,210.0,3.0,75.0,1599.0,2501.0,2551.0,2700,2602,2640.0,,49.446,59.6981,79.3387,80.0,22.0,2.25,410,2.74,165.27,0.0,0.0
PP H561R,36.0,0.35,4.0,178.0,0.0,,29.0,58.0,190.0,200.0,210.0,210.0,210.0,0.0,75.0,1852.0,2099.0,2349.0,2680,2548,2580.0,,66.7677,69.5113,96.6904,70.0,22.0,2.25,240,3.05,122.75,0.0,0.0
PP H561R,12.0,0.5,4.0,60.0,0.0,2.0,29.0,65.0,210.0,220.0,225.0,225.0,220.0,18.0,70.0,1252.0,2099.0,2349.0,2661,2558,2590.0,20.0,72.0093,70.4996,97.0388,95.0,24.0,2.25,225,2.04,102.67,800.0,300.0
PP H561R,12.0,0.5,4.0,60.0,0.0,2.0,31.0,66.0,210.0,220.0,225.0,225.0,220.0,27.5,70.0,1252.0,2099.0,2349.0,2661,2558,2590.0,24.0,72.0852,70.425,94.3582,95.0,24.0,2.25,240,1.99,117.28,800.0,300.0
rPET + CO2 Pure,72.0,0.3,2.0,60.0,0.0,,20.0,60.0,275.0,280.0,285.0,285.0,285.0,29.0,70.0,1500.0,1650.0,2550.0,2563,2617,2700.0,20.0,90.0,105.0,125.0,30.0,22.0,1.35,220,2.9,62.93,0.0,0.0
PA B33L,36.0,0.4,4.0,34.0,0.0,,23.0,38.0,255.0,265.0,275.0,275.0,280.0,105.0,75.0,2925.0,3000.0,3000.0,2990,2925,3020.0,10.0,106.823,120.934,128.232,70.0,25.0,1.4,200,2.88,80.56,0.0,0.0
PA B33L,36.0,0.4,4.0,34.0,0.0,,19.0,33.0,255.0,265.0,275.0,275.0,280.0,98.0,75.0,2431.0,2516.0,2525.0,2465,2460,2530.0,12.0,100.597,118.38,120.614,70.0,23.0,1.4,180,2.88,89.89,0.0,0.0
PA6 PENTABATC,36.0,0.4,4.0,60.0,0.0,,30.0,73.7,250.0,260.0,260.0,260.0,260.0,26.5,85.0,2800.0,2960.0,3000.0,3050,3060,3170.0,30.0,104.443,126.332,126.744,35.0,25.0,1.4,230,3.67,81.67,0.0,0.0
PA6 H24,36.0,0.4,4.0,60.0,0.0,,30.0,63.9,235.0,240.0,245.0,260.0,260.0,32.5,85.0,2700.0,2959.0,2994.0,3218,3233,3315.0,27.0,86.6435,114.987,116.459,50.0,30.0,1.4,230,3.47,67.44,0.0,0.0
PA6 B27,36.0,0.4,4.0,60.0,0.0,,25.0,61.48,265.0,275.0,280.0,275.0,270.0,87.7,86.9,2700.0,2959.0,2994.0,3218,3233,3315.0,27.0,104.926,131.34,125.805,50.0,30.0,1.4,200,3.64,74.4,0.0,0.0
PET + Avanza O 0.3.%,72.0,0.3,2.0,60.0,0.0,,24.0,69.6,275.0,285.0,285.0,285.0,285.0,9.5,70.0,2560.0,2660.0,2665.0,2600,2600,2670.0,20.0,90.8836,116.791,126.218,20.0,24.0,1.35,257,1.9,94.5,0.0,0.0
rPET + CO2 Pure 3%,72.0,0.3,0.666667,178.0,0.0,2.0,22.0,78.25,270.0,270.0,275.0,275.0,280.0,0.0,72.6,1500.0,1650.0,2300.0,2500,2700,2795.0,18.0,90.0,105.0,125.0,30.0,22.0,1.35,240,1.14,61.9,100.0,80.0
rPET + CO2 Pure 2.5%,72.0,0.3,2.0,178.0,2.0,2.0,22.0,68.0,260.0,265.0,270.0,270.0,275.0,2.0,60.0,1500.0,1650.0,2150.0,2548,2715,2795.0,20.0,90.0,110.0,125.0,30.0,26.0,1.3,240,1.51,55.72,850.0,500.0
PA B33L,36.0,0.3,2.0,60.0,2.0,2.0,6.0,50.0,285.0,295.0,300.0,295.0,285.0,88.0,51.0,582.0,809.0,1505.0,2196,2191,2240.0,,75.0,102.0,140.0,40.0,10.0,1.3,160,4.38,43.83,800.0,500.0
PP H561R,36.0,0.35,4.0,60.0,0.0,,29.5,64.0,220.0,220.0,225.0,225.0,220.0,60.0,75.0,1898.0,2001.0,2450.0,2602,2548,2610.0,,62.7603,70.3116,87.0197,60.0,22.0,2.25,240,1.04,135.54,0.0,0.0
PLA LUMINY L130,36.0,0.3,2.0,60.0,3.0,2.0,20.0,44.0,225.0,215.0,220.0,230.0,235.0,31.0,75.0,2600.0,2700.0,2820.0,2980,2930,3050.0,16.0,61.7871,85.7146,99.1232,20.0,20.0,1.3,180,2.25,51.87,500.0,355.0
PLA LUMINY L130,72.0,0.3,2.0,60.0,1.0,2.0,22.0,45.0,225.0,215.0,220.0,230.0,240.0,87.0,75.0,2620.0,2750.0,2820.0,2950,2930,3010.0,22.0,58.7404,86.945,92.6652,15.0,20.0,1.3,210,2.18,49.8,250.0,180.0
PLA LUMINY L130,72.0,0.3,2.0,60.0,3.0,2.0,27.0,49.0,225.0,215.0,220.0,230.0,235.0,27.0,75.0,2620.0,2750.0,2820.0,2950,2930,3010.0,24.0,56.7043,89.6848,93.9427,70.0,20.0,1.3,250,2.18,53.63,500.0,355.0
PLA L130,24.0,0.3,2.0,60.0,3.0,2.0,8.0,49.4,225.0,230.0,230.0,235.0,240.0,49.6,75.0,1624.0,1701.0,2685.0,2802,2861,2955.0,,70.0,90.0,110.0,20.0,18.0,1.3,79,2.92,27.5,500.0,350.0
SPH16,72.0,0.25,2.0,60.0,2.0,2.0,13.0,65.0,250.0,250.0,255.0,255.0,260.0,61.0,80.0,2610.0,2750.0,2740.0,2750,2695,2780.0,21.0,89.9707,107.849,115.205,40.0,22.0,1.65,135,2.72,71.78,500.0,355.0
PP HS61R,48.0,0.2,,60.0,0.0,,28.0,62.0,215.0,225.0,235.0,240.0,350.0,0.0,80.0,1149.0,1225.0,1799.0,2494,2348,2430.0,,60.0,80.0,90.0,80.0,25.0,2.4,240,3.49,82.33,0.0,0.0
PP HS61R,48.0,0.2,,60.0,0.0,,28.0,73.0,215.0,225.0,235.0,240.0,350.0,0.0,80.0,1149.0,1225.0,1799.0,2494,2348,2440.0,,60.0,80.0,90.0,80.0,25.0,2.4,240,3.58,90.49,0.0,0.0
PET + 15% SPH16,72.0,0.35,4.0,60.0,2.0,2.0,12.5,42.0,275.0,280.0,280.0,285.0,290.0,56.0,70.0,,2690.0,2725.0,2690,2680,2765.0,19.0,,,,25.0,22.0,1.3,130,2.22,116.94,500.0,355.0
PET + 15% SPH16,72.0,0.35,4.0,60.0,2.0,2.0,14.5,54.0,275.0,280.0,280.0,285.0,290.0,49.0,70.0,800.0,850.0,2400.0,2675,2675,2760.0,20.0,80.0,90.0,120.0,25.0,22.0,1.3,155,3.21,36.94,500.0,355.0
PBT + 15% SPH16W,72.0,0.35,4.0,60.0,2.0,2.0,14.0,50.0,245.0,250.0,255.0,260.0,265.0,41.0,70.0,1100.0,1249.0,2700.0,2700,2641,2720.0,,75.0,85.0,115.0,25.0,22.0,1.3,158,3.0,22.72,500.0,355.0
PBT + 3% Octil,72.0,0.35,4.0,60.0,2.0,2.0,13.0,32.0,260.0,270.0,275.0,275.0,275.0,38.4,70.0,2450.0,2525.0,2550.0,2490,2499,2580.0,12.0,100.752,125.011,120.563,10.0,20.0,1.2,142,0.8,90.5,500.0,355.0
PBT + 15% MB,72.0,0.35,4.0,60.0,4.0,2.0,13.8,29.0,265.0,270.0,275.0,275.0,275.0,46.8,70.0,900.0,1050.0,2450.0,2460,2406,2490.0,16.0,65.0,80.0,115.0,20.0,20.0,1.3,159,1.86,26.4,850.0,500.0
PBT + 15% MB,72.0,0.35,4.0,60.0,4.0,2.0,11.0,84.0,250.0,260.0,270.0,270.0,275.0,59.0,70.0,2850.0,2900.0,2926.0,2860,2860,2955.0,12.0,145.95,159.451,151.767,20.0,20.0,1.3,107,2.01,27.33,850.0,500.0
TPX,72.0,0.4,4.0,60.0,0.0,,11.0,77.0,270.0,280.0,285.0,290.0,295.0,25.0,50.0,1052.0,1091.0,1085.0,1061,1066,1125.0,,129.668,143.875,146.139,40.0,18.0,1.1,200,1.33,49.11,0.0,0.0
TPX,72.0,0.4,4.0,60.0,0.0,,14.0,75.0,270.0,280.0,285.0,290.0,295.0,29.0,50.0,783.0,900.0,1499.0,2201,2171,2245.0,,120.0,160.0,145.0,40.0,16.0,1.1,130,4.26,26.28,0.0,0.0
PET + 3% Zeol Ag,72.0,0.3,2.0,178.0,2.0,178.0,25.0,87.0,255.0,260.0,265.0,270.0,270.0,103.0,50.0,1800.0,1990.0,2000.0,2000,1980,2020.0,14.0,76.1726,79.968,97.9719,20.0,24.0,1.0,370,0.8,215.44,500.0,355.0
PA H24,48.0,0.4,4.0,60.0,0.0,,12.0,80.0,255.0,260.0,265.0,256.0,275.0,90.0,55.0,1800.0,1751.0,2001.0,2440,2406,2500.0,,122.545,141.136,131.908,45.0,12.0,1.3,130,3.52,76.06,0.0,0.0
TPX DX350,72.0,0.4,4.0,60.0,0.0,,14.0,68.0,265.0,275.0,280.0,285.0,285.0,42.0,50.0,1100.0,1249.0,1751.0,2201,2176,2245.0,,130.0,160.0,140.0,20.0,18.0,1.1,125,3.7,23.5,0.0,0.0
ADUANITE S3001,72.0,0.3,2.0,178.0,0.0,,21.0,47.0,250.0,260.0,265.0,270.0,270.0,100.0,65.0,800.0,980.0,2700.0,2950,2940,3050.0,,70.0,85.0,100.0,45.0,20.0,1.3,195,2.94,31.17,0.0,0.0
100%MB SP16H,72.0,0.35,4.0,60.0,2.0,2.0,13.0,60.0,260.0,265.0,275.0,275.0,275.0,58.0,70.0,2100.0,2200.0,2550.0,2489,2499,2570.0,20.0,114.913,137.026,129.026,15.0,20.0,1.2,155,1.5,96.0,500.0,355.0
100%MB SP16H,72.0,0.35,4.0,60.0,2.0,2.0,12.6,44.7,260.0,265.0,270.0,275.0,275.0,69.1,75.0,2200.0,2300.0,2450.0,2505,2500,2560.0,15.0,105.415,125.23,122.161,15.0,20.0,1.2,143,1.48,114.22,500.0,355.0
PBT + 15% SPH16W,72.0,0.35,4.0,60.0,2.0,2.0,12.0,77.0,255.0,260.0,265.0,275.0,275.0,53.0,50.0,2825.0,2900.0,2926.0,2860,2860,2955.0,,134.617,152.389,145.966,15.0,20.0,1.2,120,2.0,65.0,500.0,355.0
PP + Talco + Verde,72.0,0.35,4.0,60.0,2.0,2.0,20.1,53.0,200.0,210.0,225.0,230.0,230.0,103.0,65.0,750.0,900.0,1550.0,1960,1950,2010.0,22.0,70.0,80.0,80.0,90.0,17.0,2.25,220,1.16,100.78,500.0,355.0
Pruebas PP Amarilleamiento,72.0,0.6,4.0,178.0,0.0,,36.0,94.32,240.0,260.0,275.0,280.0,280.0,32.1,66.1,523.0,550.0,1600.0,1960,1910,1980.0,,70.0,135.0,125.0,60.0,12.0,2.1,340,3.17,61.0,0.0,0.0
PP + Talco + Verde,12.0,0.5,4.0,178.0,0.0,178.0,21.5,54.0,200.0,210.0,230.0,230.0,230.0,170.0,65.0,750.0,1000.0,1550.0,1960,1950,2010.0,,60.0,70.0,80.0,90.0,20.0,2.25,220,1.28,162.83,0.0,0.0
PA + CNT PA Nanocyl PA (H24),48.0,0.4,2.0,60.0,0.0,90.0,23.0,59.0,235.0,245.0,253.0,250.0,250.0,77.0,65.0,3685.0,2950.0,3000.0,3750,3740,3860.0,18.0,75.4558,126.136,117.798,30.0,15.0,1.25,165,3.4,68.1,0.0,0.0
rPET,75.0,0.3,2.0,90.0,0.0,,25.0,62.0,270.0,280.0,290.0,290.0,295.0,115.4,65.0,700.0,750.0,1500.0,2515,2485,2565.0,,85.0,100.0,130.0,30.0,18.0,1.3,290,2.9,27.0,0.0,0.0
rPET 0.5% HIPS,75.0,0.3,2.0,90.0,0.0,,25.1,63.0,275.0,285.0,285.0,285.0,290.0,115.7,60.0,875.0,900.0,1300.0,2500,2485,2565.0,,85.0,100.0,130.0,30.0,18.0,1.3,300,2.2,43.25,0.0,0.0
rPET 0.5% HIPS,75.0,0.3,2.0,90.0,0.0,,25.0,62.0,275.0,285.0,285.0,285.0,290.0,126.0,58.0,765.0,820.0,1375.0,2515,2485,2565.0,,85.0,100.0,130.0,40.0,18.0,1.3,300,2.43,28.67,0.0,0.0
PHB 2450 mod,48.0,0.4,4.0,90.0,4.0,2.0,9.0,58.0,165.0,170.0,175.0,185.0,185.0,0.0,50.0,850.0,1420.0,1470.0,1435,1440,1500.0,25.0,36.4233,50.6134,64.7072,20.0,16.0,1.3,175,0.8,54.0,855.0,500.0
PHB 2450 mod,48.0,0.4,4.0,90.0,4.0,2.0,4.0,53.0,165.0,170.0,175.0,185.0,185.0,0.0,50.0,500.0,540.0,560.0,580,580,600.0,20.0,20.5664,37.649,49.9074,20.0,11.0,1.3,235,0.48,80.0,855.0,500.0
PHB 2450 mod,48.0,0.4,4.0,90.0,4.0,2.0,14.0,59.0,165.0,170.0,175.0,185.0,185.0,32.2,50.0,1350.0,1425.0,1850.0,1995,1976,2055.0,20.0,45.0,60.0,70.0,20.0,15.0,1.3,190,1.4,34.0,855.0,500.0
TPX DX350,72.0,0.4,4.0,,0.0,,15.0,70.0,270.0,275.0,280.0,285.0,290.0,45.5,50.0,1081.0,1170.0,1600.0,2100,2050,2125.0,12.0,130.0,160.0,150.0,15.0,20.0,1.1,135,3.47,25.44,0.0,0.0
TCP - ET,12.0,0.5,4.0,178.0,0.0,,14.0,34.7,210.0,220.0,230.0,240.0,240.0,134.6,62.8,800.0,850.0,865.0,900,935,985.0,,32.9695,44.8482,47.9175,80.0,18.0,2.3,390,0.83,360.0,0.0,0.0
TCP - ET,12.0,0.5,4.0,178.0,0.0,,14.0,34.0,210.0,220.0,230.0,240.0,250.0,163.0,60.0,1950.0,850.0,865.0,1965,1981,2060.0,,71.1809,68.863,92.8175,80.0,18.0,2.3,180,1.16,261.0,0.0,0.0
TCP - ET,12.0,0.5,4.0,178.0,0.0,,14.0,34.0,210.0,220.0,230.0,240.0,250.0,163.0,60.0,600.0,700.0,1799.0,1790,1775,1820.0,,55.9648,70.5053,76.6439,80.0,20.0,2.3,250,1.41,176.0,0.0,0.0
TPX,72.0,0.4,4.0,60.0,0.0,,14.0,68.0,265.0,275.0,280.0,285.0,288.0,52.9,50.0,950.0,1150.0,1390.0,1750,1735,1775.0,,140.0,160.0,145.0,15.0,18.0,1.15,130,2.26,19.11,0.0,0.0
TPX,72.0,0.4,4.0,60.0,0.0,,12.5,68.0,275.0,285.0,285.0,290.0,288.0,52.9,50.0,1160.0,1300.0,1450.0,1750,1735,1775.0,,140.0,160.0,145.0,15.0,18.0,1.15,130,1.7,17.0,0.0,0.0
TPX,72.0,0.4,4.0,60.0,0.0,,14.5,69.0,270.0,275.0,285.0,290.0,300.0,53.0,50.0,1150.0,1350.0,1600.0,2100,2050,2120.0,,125.0,150.0,140.0,15.0,20.0,1.1,130,2.7,21.83,0.0,0.0
TPX,72.0,0.4,4.0,60.0,0.0,,14.5,69.0,270.0,275.0,285.0,290.0,300.0,45.8,50.0,1150.0,1350.0,1600.0,2100,2050,2120.0,,125.0,150.0,140.0,15.0,20.0,1.1,130,2.31,23.72,0.0,0.0
TPX DX350,72.0,0.35,4.0,60.0,0.0,,15.0,65.0,260.0,270.0,280.0,290.0,290.0,49.1,50.0,1325.0,1375.0,1600.0,2080,2050,2125.0,,135.0,160.0,150.0,15.0,20.0,1.1,130,3.03,20.75,0.0,0.0
rPET + PTT,72.0,0.3,2.0,60.0,0.0,60.0,15.0,83.0,245.0,255.0,260.0,270.0,265.0,35.0,50.0,1950.0,,,2000,1985,2050.0,,95.6312,122.491,121.372,15.0,18.0,1.2,220,1.35,173.0,0.0,0.0
PHB 2450 mod,48.0,0.4,4.0,90.0,0.0,,8.0,50.0,165.0,170.0,175.0,185.0,185.0,5.7,50.0,850.0,,,955,970,1000.0,,21.6532,52.3081,59.0886,20.0,18.0,1.3,230,0.98,80.0,0.0,0.0
PHB 2450 mod Azul 2%,48.0,0.4,4.0,90.0,0.0,,8.0,48.0,165.0,170.0,175.0,185.0,185.0,0.0,50.0,850.0,,,955,970,1000.0,,20.845,51.8861,58.3493,20.0,18.0,1.3,225,0.75,74.0,0.0,0.0
PES + MNV,72.0,0.4,2.0,90.0,2.0,2.0,21.0,75.0,255.0,265.0,270.0,280.0,285.0,49.0,40.0,2250.0,2400.0,2500.0,2550,2500,2595.0,22.0,98.9573,127.404,123.231,15.0,20.0,1.0,250,1.66,157.0,850.0,500.0
PP + FR,72.0,0.4,4.0,90.0,0.0,,16.0,41.2,200.0,215.0,220.0,230.0,230.0,36.3,60.0,750.0,900.0,2100.0,2152,2025,2085.0,30.0,65.0,80.0,110.0,50.0,18.0,1.5,150,3.36,24.55,0.0,0.0
PP + FR,72.0,0.4,4.0,90.0,0.0,,16.0,80.0,210.0,230.0,240.0,245.0,250.0,32.7,40.0,800.0,950.0,2150.0,2200,2040,2135.0,10.0,65.0,80.0,110.0,80.0,20.0,2.2,150,2.9,87.0,0.0,0.0
rPET tejidos + rPET,72.0,0.3,2.0,60.0,0.0,60.0,15.0,56.0,250.0,255.0,260.0,265.0,265.0,73.9,50.0,2150.0,,,2190,2190,2275.0,16.0,80.759,109.119,112.297,30.0,22.0,1.3,205,1.53,149.1,0.0,0.0
PA,48.0,0.4,2.0,105.0,0.0,,23.0,77.0,240.0,245.0,250.0,250.0,250.0,78.1,55.0,3683.0,,,3750,3740,3860.0,,79.5949,124.453,116.416,40.0,24.0,1.25,150,4.11,64.5,0.0,0.0
PA,48.0,0.4,2.0,105.0,0.0,,23.0,60.0,235.0,240.0,240.0,245.0,245.0,87.0,55.0,3683.0,,,3750,3740,3860.0,,71.619,116.564,113.469,40.0,18.0,1.5,160,3.51,69.0,0.0,0.0
TPC - ET LG,12.0,0.5,4.0,178.0,0.0,,12.0,35.0,215.0,220.0,230.0,240.0,250.0,95.0,70.0,1250.0,1500.0,2650.0,2750,2450,2710.0,4.0,85.0,100.0,115.0,80.0,20.0,1.3,130,1.56,104.0,0.0,0.0
TPC - ET LG,12.0,0.5,4.0,178.0,0.0,,12.0,35.0,215.0,220.0,230.0,240.0,250.0,99.0,70.0,1700.0,1799.0,3000.0,3399,3199,3360.0,3.0,85.0,100.0,115.0,80.0,20.0,1.3,105,1.77,104.2,0.0,0.0
A + rPET,72.0,0.3,2.0,60.0,0.0,60.0,18.0,56.0,250.0,255.0,260.0,260.0,265.0,107.0,50.0,2890.0,,,2910,2905,2990.0,,76.3928,99.7894,109.98,30.0,24.0,1.3,185,2.19,105.0,0.0,0.0
A + rPET,36.0,0.3,2.0,90.0,0.0,,16.0,68.0,260.0,265.0,270.0,270.0,274.0,135.0,60.0,2890.0,,,2910,2905,2990.0,,97.6776,123.385,117.965,30.0,24.0,1.3,155,1.8,121.2,0.0,0.0
A + rPET 50/50,72.0,0.3,2.0,90.0,0.0,,14.0,44.0,250.0,255.0,260.0,265.0,260.0,99.2,50.0,2010.0,,,2049,2070,,16.0,,,,30.0,22.0,1.3,200,1.48,146.3,0.0,0.0
TPX DX350,72.0,0.35,4.0,60.0,0.0,,15.0,46.0,260.0,270.0,280.0,290.0,295.0,39.2,50.0,1290.0,1375.0,1600.0,2123,2050,2120.0,,135.0,160.0,150.0,15.0,20.0,1.1,130,2.46,20.5,0.0,0.0
TPX DX350 0.66% Negro,72.0,0.35,4.0,60.0,0.0,,15.0,41.0,260.0,270.0,280.0,290.0,295.0,29.0,50.0,1450.0,1600.0,1784.0,2118,2050,2120.0,,135.0,160.0,150.0,15.0,20.0,1.1,130,2.2,21.0,0.0,0.0
ADUANITE S3001,72.0,0.35,4.0,178.0,0.0,,21.0,40.5,240.0,250.0,260.0,260.0,265.0,79.5,65.0,850.0,1030.0,2575.0,2980,2850,2945.0,,70.0,85.0,100.0,45.0,18.0,1.3,205,3.02,26.17,0.0,0.0
ADUANITE S3001,72.0,0.35,4.0,178.0,0.0,,21.0,43.0,255.0,260.0,265.0,270.0,270.0,76.5,65.0,900.0,1100.0,2700.0,2975,2850,2945.0,,75.0,89.0,100.0,45.0,18.0,1.3,200,2.74,32.2,0.0,0.0
ZK6HF,48.0,0.4,4.0,178.0,0.0,,16.0,24.0,250.0,260.0,265.0,270.0,280.0,120.0,75.0,1981.0,1100.0,1499.0,1991,1991,2055.0,20.0,79.9047,102.931,106.394,15.0,22.0,,200,1.05,20.56,0.0,0.0
ZK6HF,48.0,0.4,4.0,178.0,0.0,,15.0,24.0,250.0,270.0,275.0,280.0,290.0,88.0,75.0,1448.0,1600.0,1751.0,2010,1951,2025.0,20.0,90.0,130.0,120.0,25.0,20.0,,180,0.95,12.0,0.0,0.0
20180 rPETD/rPET,48.0,0.3,2.0,90.0,0.0,,24.0,51.0,260.0,265.0,270.0,270.0,275.0,37.2,50.0,2690.0,,,2710,2710,2800.0,,84.242,105.109,116.491,50.0,20.0,,270,1.6,133.0,0.0,0.0
20180 rPETD/rPET,48.0,0.3,2.0,90.0,0.0,,20.0,51.0,260.0,265.0,270.0,270.0,275.0,49.6,50.0,2500.0,,,2520,2514,2600.0,,80.9525,106.107,112.462,30.0,20.0,,240,1.62,149.0,0.0,0.0
rPET DEC + rPET,36.0,0.3,2.0,90.0,4.0,2.0,20.0,48.0,260.0,,,,280.0,146.8,60.0,2880.0,,,2900,2900,3000.0,24.0,,,,30.0,20.0,1.3,205,1.76,146.5,500.0,355.0
rPET DEC + rPET,36.0,0.3,2.0,90.0,4.0,2.0,13.0,42.0,260.0,,,,280.0,95.0,60.0,2880.0,,,2900,2900,3000.0,18.0,,,,30.0,10.0,1.15,130,1.76,140.8,500.0,355.0
rPET DEC + rPET (50%/50%),36.0,0.3,2.0,90.0,4.0,2.0,12.0,30.0,250.0,260.0,265.0,265.0,260.0,96.0,60.0,2866.0,,,2900,2900,3000.0,,85.5781,113.528,113.321,50.0,20.0,1.8,120,1.34,143.0,500.0,355.0
PHB DANIMER,96.0,0.3,2.0,30.0,1.0,2.0,19.5,28.0,165.0,180.0,190.0,200.0,200.0,106.0,70.0,2100.0,2224.0,2700.0,2827,2763,2840.0,15.0,45.0,80.0,72.0,30.0,18.0,1.3,180,1.55,32.0,500.0,355.0
ZK5HF PMMA,48.0,0.4,4.0,90.0,0.0,,17.0,29.0,255.0,260.0,270.0,275.0,278.0,63.0,75.0,2485.0,,,2499,2494,2575.0,17.0,105.087,139.547,125.037,25.0,16.0,1.4,180,1.05,24.0,0.0,0.0
PP + 07%Amarillo + 2%UV 792930,72.0,0.4,4.0,60.0,0.0,,16.0,37.0,220.0,230.0,240.0,245.0,260.0,43.5,60.0,802.0,949.0,1951.0,2201,2083,2180.0,19.0,65.0,80.0,120.0,80.0,16.0,2.1,140,3.23,77.33,0.0,0.0
PP + 07%Amarillo + 2%UV 792930 + 4%FR LXR935,72.0,0.4,4.0,60.0,0.0,,16.0,40.0,220.0,230.0,240.0,245.0,260.0,40.2,60.0,602.0,749.0,1951.0,2201,2083,2165.0,19.0,65.0,80.0,120.0,80.0,16.0,2.1,140,3.52,63.89,0.0,0.0
PP + 07%Rojo + 2%UV 792930 + 4% FR LXR935,72.0,0.4,4.0,60.0,0.0,,16.5,55.0,220.0,230.0,240.0,245.0,260.0,50.0,60.0,602.0,749.0,1951.0,2201,2083,2165.0,19.0,65.0,80.0,120.0,80.0,16.0,2.1,140,3.37,76.4,0.0,0.0
rPET + 2% Amarillo,72.0,0.3,2.0,178.0,2.0,2.0,22.0,62.0,275.0,285.0,285.0,295.0,295.0,140.0,60.0,699.0,749.0,1500.0,2753,2665,2760.0,,90.0,100.0,130.0,85.0,16.0,1.4,250,3.0,26.0,500.0,355.0
rPET,72.0,0.3,2.0,90.0,3.0,2.0,13.0,49.0,265.0,275.0,280.0,285.0,390.0,100.8,70.0,2690.0,,,2710,2730,2800.0,,112.099,149.595,140.977,30.0,18.0,1.3,137,2.4,120.0,500.0,355.0
rPET Batch 1,72.0,0.3,2.0,60.0,3.0,2.0,14.0,58.0,270.0,275.0,285.0,290.0,295.0,114.4,70.0,2700.0,,,2720,2735,2800.0,,108.721,128.474,133.464,30.0,20.0,1.3,150,2.62,114.8,500.0,355.0
TPE + 10% Plastificante,48.0,0.4,4.0,90.0,0.0,,14.0,33.0,190.0,195.0,200.0,205.0,210.0,28.0,70.0,2401.0,,,2401,2436,2520.0,,52.9184,73.3698,83.2077,40.0,23.0,1.3,170,0.64,130.0,0.0,0.0
rPET DECATHLON,36.0,0.3,2.0,90.0,4.0,2.0,14.0,54.0,250.0,260.0,265.0,265.0,260.0,171.0,60.0,2866.0,,,2900,2900,3000.0,,99.9377,126.071,123.087,40.0,20.0,1.5,135,1.6,118.8,500.0,355.0
rPET 50/50,36.0,0.3,2.0,90.0,3.0,2.0,13.5,61.0,260.0,265.0,270.0,270.0,272.0,86.5,60.0,2866.0,,,2900,2900,3000.0,,117.806,143.759,128.382,60.0,20.0,1.55,135,1.45,133.9,500.0,355.0
100% NEGOMBO SIN COLOR,72.0,0.3,2.0,60.0,0.0,,15.0,70.0,250.0,260.0,260.0,265.0,270.0,46.2,60.0,2866.0,,,2900,2900,3000.0,20.0,86.5087,121.936,116.262,60.0,20.0,1.3,150,1.72,104.0,0.0,0.0
PEF 75:25 (0560:0491),48.0,0.4,2.0,90.0,6.0,178.0,26.5,50.0,240.0,250.0,255.0,260.0,265.0,222.0,50.0,2886.0,,,2910,2895,2990.0,21.0,83.2075,111.256,115.542,40.0,15.0,1.5,295,2.15,142.0,500.0,355.0
PEF 75:25 (0560:0491),48.0,0.4,2.0,90.0,6.0,178.0,35.0,36.0,240.0,250.0,255.0,270.0,275.0,201.0,50.0,3890.0,,,3895,3885,4000.0,21.0,89.3442,133.355,130.272,70.0,16.0,1.6,295,2.31,108.3,500.0,355.0
PEF 75:25 (0560:0491),48.0,0.4,2.0,90.0,2.0,178.0,13.6,38.0,240.0,250.0,255.0,260.0,260.0,170.0,50.0,3395.0,,,3898,3399,3500.0,12.0,104.436,123.875,133.784,50.0,16.0,1.6,125,2.54,83.5,500.0,355.0
PET + PEF,48.0,0.4,2.0,90.0,1.0,,13.0,32.0,270.0,280.0,285.0,285.0,290.0,230.0,80.0,3230.0,650.0,1750.0,2152,2005,2070.0,17.0,120.0,130.0,140.0,40.0,10.0,1.6,200,3.03,38.4,500.0,355.0
PET + PEF,48.0,0.4,2.0,90.0,1.0,,12.0,45.0,275.0,285.0,290.0,290.0,290.0,230.0,80.0,2900.0,650.0,1750.0,2910,2895,2995.0,13.0,120.0,130.0,140.0,50.0,15.0,1.6,125,3.08,94.44,500.0,355.0
30/70 (Color/rPET),36.0,0.3,2.0,90.0,3.0,178.0,13.0,61.0,268.0,273.0,280.0,275.0,278.0,76.0,60.0,2876.0,,,2900,2900,3005.0,,127.902,155.326,138.07,30.0,16.0,1.5,130,1.64,141.3,500.0,355.0
PES GRAFENO 5000 ppm,48.0,0.3,2.0,60.0,4.0,2.0,20.0,55.0,280.0,290.0,295.0,295.0,295.0,344.0,60.0,3000.0,,,3008,3003,3100.0,,100.894,123.511,125.626,40.0,30.0,1.1,190,2.44,120.7,500.0,355.0
PE PURELL GA7760 + 4% Aditivo,72.0,0.4,4.0,105.0,2.0,2.0,28.0,44.0,200.0,200.0,200.0,200.0,205.0,347.0,60.0,500.0,720.0,1000.0,1100,1052,1050.0,2.0,27.8855,38.2447,40.3121,80.0,30.0,2.1,170,0.41,292.8,850.0,500.0
PE PURELL GA7760 + 4% Aditivo,72.0,0.6,4.0,105.0,2.0,2.0,42.0,57.0,200.0,200.0,200.0,200.0,205.0,336.0,60.0,550.0,800.0,1900.0,2200,2150,2180.0,2.0,60.0,50.0,50.0,100.0,30.0,2.1,415,1.47,147.0,850.0,500.0
PE PURELL GA7760 + 4% Aditivo,72.0,0.6,4.0,105.0,2.0,2.0,42.0,57.0,200.0,200.0,200.0,200.0,205.0,343.0,60.0,550.0,800.0,1900.0,2171,1981,2045.0,22.0,40.0,40.0,50.0,100.0,30.0,2.1,415,1.51,170.3,850.0,500.0
PE PURELL GA7760 + 4% Aditivo,72.0,0.6,4.0,105.0,2.0,2.0,42.0,57.0,200.0,200.0,200.0,200.0,205.0,343.0,60.0,550.0,800.0,1900.0,2171,1981,2045.0,22.0,40.0,40.0,70.0,100.0,30.0,2.1,415,1.28,192.3,850.0,500.0
NEGOMBO WHITE 30% + rPET 70%,36.0,0.3,2.0,90.0,3.0,178.0,13.0,45.0,270.0,275.0,280.0,275.0,280.0,203.0,60.0,2876.0,,,2925,2930,3031.0,,116.761,138.867,137.799,40.0,16.0,1.5,130,2.08,115.0,850.0,500.0
BATCH 2,36.0,0.3,2.0,90.0,3.0,2.0,14.0,40.0,275.0,280.0,290.0,295.0,298.0,200.0,75.0,2949.0,,,2978,2964,3065.0,20.0,122.734,144.095,142.263,40.0,16.0,1.5,140,2.15,129.0,500.0,355.0
BATCH 2,36.0,0.3,2.0,90.0,3.0,2.0,13.5,40.0,275.0,280.0,290.0,290.0,295.0,207.0,75.0,2955.0,,,2978,2960,3070.0,12.0,121.06,142.878,141.061,40.0,16.0,1.5,130,2.11,130.0,500.0,355.0
BATCH 2,72.0,0.3,2.0,90.0,1.0,2.0,13.2,45.0,280.0,290.0,295.0,300.0,305.0,130.0,95.0,2954.0,,,2970,2960,3068.0,16.0,111.525,135.258,138.377,40.0,20.0,1.35,130,2.15,126.0,500.0,355.0
BATCH 2,72.0,0.3,2.0,90.0,1.0,2.0,13.0,46.0,280.0,290.0,295.0,300.0,300.0,139.0,95.0,2900.0,,,2930,2895,3000.0,18.0,108.716,132.18,136.156,30.0,20.0,1.3,130,2.3,133.0,500.0,355.0
TPX DX350,48.0,0.4,4.0,60.0,0.0,,10.21,53.0,275.0,285.0,290.0,290.0,285.0,37.0,80.0,1600.0,1650.0,1960.0,2350,2250,2330.0,,135.0,160.0,140.0,30.0,15.0,1.4,88,2.05,22.0,0.0,0.0
TPX DX350,48.0,0.4,4.0,60.0,0.0,,9.5,51.0,275.0,285.0,290.0,290.0,285.0,42.0,80.0,950.0,1100.0,1670.0,2108,2044,2124.0,13.0,135.0,160.0,140.0,30.0,12.0,1.4,90,3.3,25.7,0.0,0.0
NEGOMBO BLACK 30% + rPET 70%,72.0,0.3,2.0,90.0,3.0,178.0,13.0,46.0,268.0,273.0,280.0,275.0,278.0,32.0,60.0,2851.0,,,2861,2861,,,,,,20.0,16.0,1.5,130,1.78,138.5,500.0,355.0
NEGOMBO BLACK 30% + rPET 70%,72.0,0.3,2.0,90.0,3.0,178.0,14.0,53.0,270.0,275.0,283.0,278.0,278.0,29.0,60.0,2875.0,,,2940,2940,3040.0,,103.457,136.369,131.496,30.0,16.0,1.5,130,1.78,132.0,500.0,355.0
rPET,72.0,0.4,2.0,90.0,3.0,2.0,22.0,43.0,285.0,295.0,300.0,300.0,297.0,243.0,100.0,3037.0,,,3057,3027,3130.0,,108.068,123.016,134.6,50.0,24.0,,210,2.43,105.0,500.0,355.0
TPX 350,48.0,0.4,4.0,60.0,2.0,2.0,11.2,65.0,275.0,285.0,290.0,290.0,286.0,32.0,120.0,1599.0,1799.0,2125.0,2612,2543,2650.0,,150.0,160.0,140.0,30.0,20.0,1.4,85,2.25,22.0,500.0,355.0
TPX 350,48.0,0.4,4.0,60.0,2.0,2.0,9.5,87.0,275.0,285.0,290.0,290.0,288.0,17.1,120.0,980.0,1124.0,1695.0,2108,2045,2134.0,,160.0,160.0,150.0,15.0,18.0,1.4,91,3.42,27.5,500.0,355.0
TPX 350,48.0,0.4,4.0,60.0,2.0,2.0,9.4,82.0,275.0,285.0,290.0,290.0,285.0,23.0,120.0,890.0,1050.0,1650.0,2020,1945,2035.0,,160.0,165.0,150.0,30.0,16.0,1.4,90,3.44,28.9,500.0,355.0
LLDPE ASPUN (RESINEX),72.0,0.6,4.0,105.0,0.0,,30.0,53.0,215.0,220.0,225.0,225.0,225.0,145.0,120.0,641.0,670.0,2350.0,2602,2274,2370.0,,50.0,50.0,72.0,85.0,25.0,2.3,240,1.72,250.0,0.0,0.0
LLDPE ASPUN (RESINEX),72.0,0.6,4.0,105.0,0.0,,30.0,53.0,215.0,220.0,225.0,225.0,225.0,145.0,120.0,650.0,670.0,2710.0,3000,2800,2900.0,,50.0,50.0,72.0,85.0,25.0,2.3,195,2.1,156.0,0.0,0.0
TPX 350,48.0,0.4,4.0,60.0,2.0,178.0,15.0,88.0,275.0,285.0,290.0,290.0,285.0,50.0,120.0,1648.0,1826.0,2215.0,2675,2577,2680.0,,158.0,185.0,150.0,30.0,20.0,1.4,110,2.26,22.17,500.0,355.0
PLA + 0.1 Silano,48.0,0.4,2.0,60.0,1.0,178.0,11.0,50.0,210.0,215.0,220.0,225.0,225.0,0.0,40.0,850.0,900.0,1800.0,2050,2050,2109.0,,70.0,100.0,131.0,30.0,18.0,1.35,160,1.12,32.6,500.0,355.0
rPET,72.0,0.3,2.0,90.0,1.0,178.0,13.0,79.0,280.0,285.0,290.0,290.0,290.0,104.4,70.0,2900.0,,,2915,2895,3000.0,14.0,121.003,147.641,143.195,30.0,20.0,1.3,130,2.45,111.22,500.0,355.0
PLA,72.0,0.3,2.0,90.0,2.0,2.0,28.8,48.0,98.3,80.0,225.0,230.0,240.0,245.0,240.0,2950.0,,,3100,3100,3080.0,,65.8972,108.037,101.851,40.0,20.0,1.5,260,2.1,65.67,500.0,355.0
PLA,72.0,0.3,2.0,90.0,2.0,2.0,23.0,48.5,83.1,80.0,230.0,235.0,245.0,250.0,240.0,2700.0,,,2719,2705,2800.0,,71.7628,102.61,105.166,40.0,18.0,1.5,230,2.0,78.0,500.0,355.0
PLA,72.0,0.3,2.0,90.0,2.0,2.0,24.5,48.0,83.6,80.0,230.0,235.0,245.0,250.0,240.0,2600.0,,,2620,2605,2700.0,,68.9939,97.1227,103.264,40.0,18.0,1.5,250,1.94,78.4,500.0,355.0
PHB DAN 04493,48.0,0.4,4.0,90.0,4.0,178.0,12.0,20.0,90.0,50.0,165.0,170.0,175.0,180.0,185.0,1500.0,,,1800,1950,2000.0,,37.0081,64.1635,64.9807,30.0,20.0,1.4,165,1.28,55.6,500.0,355.0
PHB DAN 04493,48.0,0.4,4.0,90.0,4.0,178.0,14.0,21.0,162.0,50.0,165.0,170.0,175.0,180.0,185.0,2100.0,,,2150,2142,2000.0,,36.9146,59.5767,66.1678,35.0,20.0,1.55,180,0.8,43.3,500.0,355.0
PHB DAN 04493,48.0,0.4,4.0,90.0,4.0,178.0,13.5,20.0,156.0,50.0,165.0,170.0,175.0,180.0,185.0,2130.0,,,2150,2132,2222.0,,38.6587,60.3957,68.4758,10.0,16.0,1.4,165,1.01,43.0,500.0,355.0
PHB DAN 04493,48.0,0.4,4.0,90.0,4.0,178.0,12.0,23.0,102.0,50.0,170.0,175.0,180.0,185.0,190.0,1500.0,,,1800,1950,2000.0,,38.7688,62.2009,66.8704,20.0,20.0,1.4,178,1.4,51.0,500.0,355.0
PHB DAN 04493,48.0,0.4,4.0,90.0,4.0,178.0,11.5,23.0,40.0,50.0,170.0,175.0,180.0,185.0,190.0,1400.0,,,1800,1950,2000.0,,38.056,59.5976,68.1234,20.0,20.0,1.4,160,1.49,46.0,500.0,355.0
PHB DAN 04493,48.0,0.4,4.0,90.0,4.0,178.0,11.7,24.0,56.0,50.0,170.0,175.0,185.0,190.0,195.0,1700.0,1850.0,2150.0,2350,2450,2540.0,,50.0,65.0,75.0,20.0,20.0,1.4,141,1.4,30.0,500.0,355.0
PHB DAN 04493,48.0,0.4,4.0,90.0,4.0,178.0,11.5,26.0,19.5,50.0,173.0,178.0,188.0,198.0,198.0,1350.0,,,2000,2040,2000.0,,39.8678,58.9298,69.716,20.0,20.0,1.4,166,1.2,40.0,500.0,355.0
PHB DAN 04493,48.0,0.4,4.0,90.0,4.0,178.0,11.5,23.0,32.0,50.0,170.0,175.0,185.0,190.0,195.0,1400.0,,,1800,1950,2000.0,,37.7048,58.9453,67.8417,20.0,20.0,1.4,165,1.3,40.0,500.0,355.0
PHB DAN 04493,48.0,0.4,4.0,90.0,4.0,178.0,11.5,23.0,35.8,50.0,170.0,175.0,180.0,185.0,195.0,1400.0,,,1800,1950,2000.0,,38.1463,61.1077,64.3296,30.0,25.0,1.4,174,1.3,42.0,500.0,355.0
rPET 30/70,72.0,0.25,2.0,60.0,3.0,2.0,18.0,85.0,42.2,70.0,262.0,270.0,275.0,275.0,275.0,2401.0,,,2421,2401,2490.0,15.0,98.7586,150.025,116.59,30.0,18.0,1.5,225,1.47,201.0,500.0,355.0
rPET 30/70,72.0,0.25,2.0,60.0,3.0,2.0,20.0,85.0,55.5,70.0,262.0,270.0,275.0,275.0,275.0,2800.0,,,2821,2800,2895.0,15.0,108.064,168.417,123.661,50.0,20.0,1.5,205,1.66,167.0,500.0,355.0
rPET 30/70,72.0,0.25,2.0,60.0,3.0,2.0,19.2,80.0,57.3,70.0,260.0,270.0,275.0,275.0,275.0,2600.0,,,2617,2602,2695.0,15.0,100.298,155.334,118.216,40.0,20.0,1.5,210,1.61,186.5,500.0,355.0
rPET,72.0,0.3,2.0,60.0,3.0,2.0,14.8,48.0,88.6,70.0,275.0,280.0,285.0,290.0,290.0,768.0,821.0,1374.0,2514,2485,2555.0,,89.0,97.0,115.0,40.0,18.0,1.3,175,3.45,37.61,500.0,355.0
rPET,72.0,0.3,2.0,60.0,3.0,2.0,12.6,56.0,49.2,50.0,285.0,295.0,295.0,290.0,290.0,792.0,818.0,1375.0,2485,2455,2530.0,,88.0,130.0,140.0,40.0,18.0,1.3,150,3.4,24.0,500.0,355.0
PLA + 0.1 Silano,48.0,0.4,2.0,60.0,1.0,178.0,13.0,80.0,0.0,45.0,225.0,225.0,225.0,230.0,230.0,851.0,975.0,1451.0,2450,2450,2520.0,14.0,80.0,110.0,95.0,35.0,18.0,1.2,152,1.27,35.78,500.0,355.0
rPET,72.0,0.3,2.0,90.0,1.0,2.0,13.0,60.0,70.0,105.0,280.0,288.0,292.0,295.0,295.0,2773.0,,,2817,2802,,,,,,25.0,18.0,1.5,135,2.43,128.0,500.0,355.0
rPET,72.0,0.2,2.0,90.0,1.0,2.0,11.9,59.0,100.6,105.0,280.0,288.0,292.0,295.0,295.0,2773.0,,,2783,2778,2885.0,15.0,111.847,170.429,144.197,35.0,15.0,1.3,128,2.42,136.32,500.0,355.0
COPET,72.0,0.25,2.0,60.0,0.0,2.0,14.0,28.0,168.7,70.0,230.0,235.0,240.0,240.0,240.0,2201.0,,,2230,2220,2300.0,21.0,59.6226,88.5992,96.9399,35.0,15.0,1.05,190,1.32,172.0,0.0,0.0
COPET,72.0,0.25,2.0,60.0,0.0,2.0,14.0,28.0,172.0,70.0,230.0,235.0,240.0,240.0,240.0,2900.0,,,2930,2920,3010.0,10.0,56.9548,98.9449,97.0958,35.0,18.0,1.05,145,1.85,133.58,0.0,0.0
COPET,72.0,0.25,2.0,60.0,7.0,2.0,33.0,72.0,267.0,70.0,230.0,235.0,240.0,240.0,240.0,2900.0,,,2930,2920,3010.0,18.0,63.9922,124.126,100.802,35.0,18.0,1.6,328,1.69,158.0,500.0,355.0
PS 454N,48.0,0.4,4.0,90.0,0.0,,22.0,50.0,112.6,106.0,250.0,260.0,265.0,265.0,265.0,1650.0,1750.0,1950.0,2000,1970,2040.0,22.0,60.0,70.0,100.0,50.0,24.0,1.7,257,0.97,26.98,0.0,0.0
ADVANITE 53001,72.0,0.35,4.0,178.0,0.0,,21.0,44.0,135.3,115.7,255.0,260.0,265.0,270.0,270.0,900.0,1100.0,2700.0,2975,2850,2940.0,,70.0,80.0,100.0,45.0,18.0,1.3,207,2.68,42.58,0.0,0.0
ADVANITE 53001,72.0,0.35,4.0,178.0,0.0,,20.5,40.0,136.0,90.0,255.0,265.0,240.0,275.0,275.0,1050.0,1100.0,2780.0,3000,2850,2955.0,,76.0,80.0,100.0,45.0,18.0,1.3,200,1.7,26.0,0.0,0.0
ADVANITE 53001,72.0,0.35,4.0,178.0,0.0,,20.0,40.0,134.8,89.1,255.0,265.0,240.0,275.0,275.0,900.0,950.0,2780.0,3000,2850,2953.0,18.0,76.0,80.0,100.0,45.0,18.0,1.3,192,3.11,37.02,0.0,0.0
rPET,72.0,0.3,2.0,90.0,1.0,2.0,11.9,38.0,76.0,60.0,280.0,283.0,287.0,290.0,290.0,2250.0,,,2264,2250,2325.0,,98.5424,142.613,125.98,45.0,12.0,1.4,150,2.37,148.0,500.0,355.0
rPET,72.0,0.3,2.0,90.0,1.0,2.0,10.0,35.0,62.0,60.0,280.0,283.0,287.0,290.0,290.0,2250.0,,,2264,2250,2325.0,,100.973,144.367,127.378,45.0,12.0,1.4,130,2.27,140.0,500.0,355.0
rPET,72.0,0.3,2.0,90.0,1.0,2.0,10.0,35.0,70.0,60.0,280.0,283.0,287.0,290.0,290.0,2250.0,,,2264,2250,2325.0,,99.7376,143.16,126.629,45.0,12.0,1.4,129,2.47,144.0,500.0,355.0
TPX,48.0,0.4,4.0,60.0,2.0,178.0,9.0,52.9,70.6,87.8,280.0,285.0,290.0,290.0,285.0,1750.0,1800.0,2100.0,2655,2550,2625.0,14.0,162.0,200.0,165.0,50.0,18.0,1.45,131,2.25,28.0,500.0,355.0
TPX + Negro,48.0,0.4,4.0,60.0,2.0,2.0,9.0,58.0,101.0,108.0,280.0,285.0,290.0,290.0,286.0,1325.0,1421.0,1659.0,2098,2000,2070.0,,155.0,201.0,155.0,50.0,19.0,1.3,134,2.22,27.3,500.0,355.0
TPE Producción,48.0,0.4,4.0,90.0,0.0,,14.0,28.0,93.0,70.0,195.0,195.0,200.0,205.0,210.0,2400.0,,,2425,2450,2560.0,,49.7911,58.0101,68.3362,35.0,30.0,1.8,165,0.8,130.0,0.0,0.0
TPE Producción,48.0,0.4,4.0,90.0,0.0,,14.0,30.0,88.0,70.0,200.0,200.0,205.0,210.0,215.0,2400.0,,,2425,2450,2560.0,,51.378,58.4727,69.8308,35.0,30.0,1.8,165,0.73,115.0,0.0,0.0
TPE Producción,48.0,0.4,4.0,90.0,0.0,,14.0,28.0,100.0,70.0,200.0,200.0,205.0,210.0,215.0,2400.0,,,2425,2450,2560.0,,51.4607,59.2852,70.1277,35.0,30.0,1.8,165,0.75,115.0,0.0,0.0
ABS H380,72.0,0.6,4.0,60.0,0.0,,26.0,41.0,136.0,135.0,240.0,250.0,260.0,270.0,280.0,1285.0,1421.0,1969.0,1986,1591,1100.0,,42.6917,57.9714,82.3312,60.0,23.0,1.25,330,1.03,10.0,0.0,0.0
PHB DAN 04493,48.0,0.4,4.0,90.0,4.0,2.0,11.5,29.0,43.0,50.0,170.0,175.0,180.0,185.0,190.0,2100.0,,,2500,2650,2700.0,,49.2096,60.8163,68.4333,30.0,25.0,1.4,130,1.05,43.0,850.0,500.0
PLA,72.0,0.3,2.0,90.0,4.0,2.0,21.0,41.0,190.0,80.0,230.0,235.0,245.0,250.0,240.0,2600.0,,,2625,2615,2700.0,,73.9346,109.782,104.61,40.0,18.0,1.5,220,1.95,84.0,850.0,500.0
rPET BATCH 1,72.0,0.3,2.0,90.0,1.0,2.0,11.9,80.0,67.0,120.0,283.0,291.0,295.0,298.0,298.0,2778.0,,,2800,2778,2885.0,,123.133,183.049,145.75,35.0,12.0,1.4,110,2.18,165.0,500.0,355.0
rPET BATCH 1,72.0,0.3,2.0,90.0,1.0,2.0,11.7,59.0,61.0,80.0,283.0,291.0,295.0,298.0,298.0,2778.0,,,2800,2778,2885.0,,110.666,173.543,137.379,35.0,18.0,1.5,130,2.0,150.0,500.0,355.0
rPET BATCH 1,72.0,0.3,2.0,90.0,1.0,2.0,10.5,68.0,46.0,80.0,283.0,291.0,295.0,298.0,298.0,2778.0,,,2800,2778,2885.0,,115.465,179.608,139.009,35.0,18.0,1.5,118,2.2,153.0,500.0,355.0
rPET BATCH 2,72.0,0.3,2.0,90.0,1.0,2.0,10.0,69.0,72.0,120.0,285.0,290.0,295.0,300.0,300.0,2758.0,,,2802,2778,2885.0,,119.197,180.039,145.406,35.0,15.0,1.5,115,2.47,132.0,500.0,355.0
rPET BATCH 2,72.0,0.3,2.0,90.0,1.0,2.0,10.5,40.0,80.0,60.0,285.0,290.0,295.0,300.0,300.0,2758.0,,,2802,2778,2885.0,,107.007,161.069,137.201,50.0,18.0,1.5,110,2.5,130.0,500.0,355.0
rPET BATCH 3,72.0,0.3,2.0,90.0,4.0,2.0,10.0,47.0,87.0,75.0,282.0,288.0,292.0,295.0,295.0,2470.0,,,2485,2475,2540.0,,103.958,158.466,130.488,35.0,18.0,1.5,120,2.2,145.0,500.0,355.0
rPET 30/70,72.0,0.3,2.0,60.0,3.0,2.0,20.0,80.0,90.0,58.7,260.0,265.0,270.0,270.0,270.0,2401.0,,,2421,2401,2500.0,16.0,79.5047,120.966,95.7807,30.0,20.0,1.3,238,1.21,327.44,500.0,355.0
rPET 30/70,72.0,0.3,2.0,60.0,3.0,2.0,20.0,85.0,112.5,65.2,260.0,265.0,270.0,270.0,270.0,1198.0,1249.0,2299.0,2822,2832,2920.0,16.0,95.0,145.0,115.0,35.0,20.0,1.3,200,1.55,110.0,500.0,355.0
PBS,36.0,0.3,2.0,90.0,0.0,,16.5,32.0,149.0,60.0,235.0,245.0,255.0,255.0,260.0,2650.0,,,2700,2700,2800.0,14.0,72.4074,97.5613,104.187,65.0,20.0,1.6,154,1.68,181.2,0.0,0.0
PBS,36.0,0.3,2.0,90.0,0.0,,16.5,32.0,142.0,60.0,235.0,245.0,255.0,255.0,260.0,2720.0,,,2768,2768,2870.0,12.0,72.8731,96.2799,104.522,50.0,20.0,1.4,110,1.62,175.0,0.0,0.0
PBS,36.0,0.3,2.0,90.0,0.0,,16.5,31.0,145.0,60.0,235.0,245.0,255.0,255.0,260.0,2768.0,,,2812,2812,2915.0,12.0,72.9285,100.513,104.71,65.0,20.0,1.4,150,1.65,185.0,0.0,0.0
PLA + 0.1 Silano,72.0,0.3,2.0,60.0,3.0,2.0,13.0,100.0,0.0,0.0,210.0,212.0,214.0,216.0,220.0,900.0,1250.0,1700.0,2582,2600,2665.0,,75.0,90.0,75.0,30.0,18.0,1.3,180,1.05,35.0,500.0,355.0
PBS,36.0,0.3,2.0,90.0,0.0,,16.0,32.5,49.0,60.0,225.0,235.0,245.0,245.0,250.0,2400.0,,,2450,2440,2515.0,14.0,69.7222,78.5125,102.235,65.0,20.0,1.3,127,1.83,146.0,0.0,0.0
Reclado químico VELOR,72.0,0.35,2.0,60.0,2.0,2.0,11.9,30.0,185.8,60.0,285.0,290.0,295.0,300.0,305.0,2700.0,,,2725,2715,2800.0,20.0,97.3533,146.868,130.197,10.0,18.0,1.25,120,2.73,123.67,500.0,355.0
Reclado químico VELOR,72.0,0.35,2.0,60.0,2.0,2.0,12.4,30.0,185.8,60.0,285.0,290.0,295.0,300.0,305.0,2700.0,,,2725,2715,2800.0,20.0,95.7242,145.022,128.654,10.0,18.0,1.25,134,2.86,133.0,500.0,355.0
Reclado químico VELOR,72.0,0.35,2.0,60.0,2.0,2.0,11.7,65.0,127.0,60.0,300.0,305.0,310.0,315.0,320.0,2700.0,,,2725,2715,2800.0,20.0,122.153,190.691,148.799,10.0,18.0,1.25,137,2.43,153.0,500.0,355.0
PE ASPUN,72.0,0.6,4.0,105.0,0.0,,22.0,46.4,22.7,90.0,235.0,240.0,245.0,245.0,250.0,900.0,1000.0,2300.0,2800,2750,2830.0,,50.0,62.0,77.0,30.0,20.0,2.1,182,1.86,176.67,0.0,0.0
PE ASPUN,72.0,0.6,4.0,105.0,0.0,,21.5,46.4,21.2,90.0,235.0,240.0,245.0,245.0,250.0,600.0,1050.0,2500.0,2900,2886,2920.0,,50.0,62.0,77.0,35.0,20.0,2.1,141,2.18,153.33,0.0,0.0
PE ASPUN,72.0,0.6,4.0,105.0,0.0,,25.0,48.18,27.6,90.0,235.0,240.0,245.0,245.0,250.0,800.0,900.0,2700.0,3052,2915,3005.0,,50.0,62.0,77.0,45.0,20.0,2.1,157,2.1,143.0,0.0,0.0
PE ASPUN,72.0,0.6,4.0,105.0,0.0,,25.0,45.0,32.3,75.0,235.0,240.0,245.0,245.0,250.0,800.0,900.0,2700.0,3052,2915,3005.0,13.0,35.0,45.0,55.0,35.0,22.0,2.1,155,2.15,162.3,0.0,0.0
PE ASPUN,72.0,0.6,4.0,105.0,0.0,,22.0,45.0,29.0,75.0,235.0,240.0,245.0,245.0,250.0,650.0,750.0,2900.0,3100,2930,3020.0,12.0,50.0,60.0,70.0,35.0,22.0,2.1,142,2.32,83.56,0.0,0.0
SABIC M200024,72.0,0.6,4.0,105.0,2.0,2.0,22.5,47.0,16.3,87.4,217.0,220.0,218.0,215.0,220.0,500.0,700.0,1950.0,2150,2040,2135.0,10.0,50.0,60.0,70.0,42.0,22.0,1.9,200,1.3,110.67,850.0,500.0
SABIC M200056,72.0,0.6,4.0,105.0,2.0,2.0,20.0,35.0,20.7,65.0,217.0,220.0,218.0,215.0,220.0,650.0,730.0,2000.0,2775,2750,2835.0,10.0,65.0,75.0,85.0,20.0,20.0,1.9,135,2.49,65.67,850.0,500.0
SABIC M200056,72.0,0.6,4.0,105.0,2.0,2.0,22.5,40.0,56.0,64.2,217.0,220.0,218.0,215.0,220.0,650.0,730.0,2000.0,2600,2520,2610.0,10.0,65.0,75.0,85.0,45.0,20.0,1.9,190,1.85,103.93,850.0,500.0
SABIC M200056,72.0,0.6,4.0,105.0,2.0,2.0,30.0,45.0,74.9,56.1,217.0,220.0,218.0,215.0,220.0,650.0,730.0,2350.0,3000,2900,3000.0,8.0,65.0,75.0,85.0,55.0,20.0,1.9,196,2.27,112.67,850.0,500.0
PLA + CaCO3,72.0,0.3,2.0,90.0,2.0,2.0,19.0,42.0,52.0,70.0,225.0,230.0,235.0,240.0,240.0,2500.0,,,2520,2520,2600.0,,66.1742,87.4222,96.65,40.0,20.0,1.65,230,2.05,85.0,500.0,355.0
PLA + CaCO3,72.0,0.3,2.0,90.0,2.0,2.0,18.0,42.0,52.0,70.0,225.0,230.0,235.0,240.0,240.0,2500.0,,,2520,2520,2600.0,,66.7827,87.6871,96.5784,40.0,20.0,1.65,220,1.9,80.0,500.0,355.0
rPET,72.0,0.2,2.0,60.0,2.0,2.0,13.0,,150.0,70.0,275.0,,,,295.0,2866.0,,,2880,2860,2970.0,,,,,,,,131,2.15,143.71,500.0,355.0
PLA + CaCO3,72.0,0.3,2.0,90.0,2.0,2.0,18.0,40.0,50.0,70.0,225.0,230.0,235.0,240.0,240.0,2500.0,,,2520,2520,2600.0,,66.6156,87.3317,96.3283,40.0,20.0,1.65,200,1.9,90.0,500.0,355.0
PLA + CaCO3,72.0,0.3,2.0,90.0,2.0,2.0,19.5,41.0,50.0,70.0,225.0,230.0,235.0,240.0,240.0,2550.0,,,2570,2570,2650.0,,67.3218,88.8607,96.2832,40.0,20.0,1.65,220,1.7,100.0,500.0,355.0
MP1925 + 0.3 TiO2,72.0,0.3,2.0,90.0,2.0,2.0,14.0,45.0,154.8,111.2,295.0,300.0,305.0,305.0,305.0,2780.0,,,2842,2837,2923.0,22.0,110.188,157.48,146.307,10.0,16.0,1.6,136,2.62,130.67,500.0,355.0
MP1925 + 0.3 TiO2,72.0,0.3,2.0,90.0,2.0,2.0,14.5,45.0,169.2,115.4,295.0,300.0,305.0,305.0,305.0,2740.0,,,2778,2758,2840.0,16.0,106.93,151.863,141.531,10.0,16.0,1.5,148,2.9,147.0,500.0,355.0